Current (mA)	Voltage (V)	Power (mW)
0.00000	0.10113	0.00197
0.05000	0.73034	0.00204
0.10000	1.42601	0.00204
0.15000	1.45604	0.00197
0.20000	1.48013	0.00151
0.25000	1.49985	0.00211
0.30000	1.51739	0.00214
0.35000	1.53319	0.00241
0.40000	1.54711	0.00226
0.45000	1.56035	0.00323
0.50000	1.57218	0.00335
0.55000	1.58339	0.00556
0.60000	1.59264	0.01439
0.65000	1.60033	0.03495
0.70000	1.60748	0.05881
0.75000	1.61425	0.08244
0.80000	1.62117	0.10678
0.85000	1.62767	0.13025
0.90000	1.63443	0.15511
0.95000	1.64079	0.17833
1.00000	1.64745	0.20237
1.05000	1.65387	0.22686
1.10000	1.66006	0.25014
1.15000	1.66635	0.27365
1.20000	1.67246	0.29627
1.25000	1.67865	0.32005
1.30000	1.68462	0.34297
1.35000	1.69073	0.36677
1.40000	1.69679	0.38980
1.45000	1.70242	0.41178
1.50000	1.70836	0.43564
1.55000	1.71392	0.45792
1.60000	1.71968	0.48095
1.65000	1.72523	0.50240
1.70000	1.73093	0.52539
1.75000	1.73653	0.54808
1.80000	1.74182	0.56958
1.85000	1.74739	0.59175
1.90000	1.75262	0.61348
1.95000	1.75802	0.63538
2.00000	1.76317	0.65669
2.05000	1.76851	0.67778
2.10000	1.77371	0.69968
2.15000	1.77882	0.72099
2.20000	1.78386	0.74177
2.25000	1.78885	0.76271
2.30000	1.79391	0.78446
2.35000	1.79891	0.80667
2.40000	1.80384	0.82907
2.45000	1.80882	0.85191
2.50000	1.81355	0.87329
2.55000	1.81851	0.89562
2.60000	1.82320	0.91633
2.65000	1.82811	0.93831
2.70000	1.83293	0.95879
2.75000	1.83755	0.98055
2.80000	1.84230	1.00167
2.85000	1.84684	1.02268
2.90000	1.85154	1.04440
2.95000	1.85599	1.06574
3.00000	1.86063	1.08754
3.05000	1.86525	1.10907
3.10000	1.86967	1.12989
3.15000	1.87425	1.15146
3.20000	1.87859	1.17195
3.25000	1.88309	1.19337
3.30000	1.88738	1.21375
3.35000	1.89183	1.23431
3.40000	1.89626	1.25617
3.45000	1.90044	1.27546
3.50000	1.90486	1.29629
3.55000	1.90907	1.31596
3.60000	1.91331	1.33625
3.65000	1.91743	1.35652
3.70000	1.92166	1.37621
3.75000	1.92589	1.39585
3.80000	1.92989	1.41535
3.85000	1.93410	1.43439
3.90000	1.93807	1.45409
3.95000	1.94224	1.47244
4.00000	1.94613	1.49151
4.05000	1.95019	1.51069
4.10000	1.95426	1.52867
4.15000	1.95810	1.54628
4.20000	1.96197	1.56463
4.25000	1.96587	1.58175
4.30000	1.96974	1.60079
4.35000	1.97363	1.61809
4.40000	1.97754	1.63634
4.45000	1.98135	1.65457
4.50000	1.98503	1.67121
4.55000	1.98891	1.68927
4.60000	1.99252	1.70546
4.65000	1.99632	1.72299
4.70000	1.99995	1.73959
4.75000	2.00374	1.75634
4.80000	2.00742	1.77308
4.85000	2.01094	1.78934
4.90000	2.01461	1.80571
4.95000	2.01819	1.82131
5.00000	2.02183	1.83712
5.05000	2.02527	1.85308
5.10000	2.02890	1.86830
5.15000	2.03244	1.88341
5.20000	2.03588	1.89829
5.25000	2.03939	1.91312
5.30000	2.04279	1.92752
5.35000	2.04633	1.94195
5.40000	2.04972	1.95630
5.45000	2.05308	1.97048
5.50000	2.05646	1.98449
5.55000	2.05981	1.99798
5.60000	2.06315	2.01111
5.65000	2.06637	2.02430
5.70000	2.06972	2.03810
5.75000	2.07302	2.05021
5.80000	2.07629	2.06367
5.85000	2.07948	2.07507
5.90000	2.08263	2.08699
5.95000	2.08595	2.09937
6.00000	2.08904	2.11037
6.05000	2.09231	2.12198
6.10000	2.09545	2.13358
6.15000	2.09848	2.14415
6.20000	2.10170	2.15544
6.25000	2.10475	2.16536
6.30000	2.10777	2.17571
6.35000	2.11080	2.18607
6.40000	2.11390	2.19530
6.45000	2.11702	2.20532
6.50000	2.11989	2.21395
6.55000	2.12291	2.22315
6.60000	2.12586	2.23223
6.65000	2.12883	2.23993
6.70000	2.13168	2.24861
6.75000	2.13466	2.25721
6.80000	2.13759	2.26431
6.85000	2.14052	2.27216
6.90000	2.14334	2.27903
6.95000	2.14611	2.28663
7.00000	2.14897	2.29339
7.05000	2.15178	2.29971
7.10000	2.15456	2.30614
7.15000	2.15746	2.31178
7.20000	2.16017	2.31742
7.25000	2.16296	2.32289
7.30000	2.16563	2.32815
7.35000	2.16842	2.33272
7.40000	2.17115	2.33758
7.45000	2.17315	2.34379
7.50000	2.17592	2.34737
7.55000	2.17840	2.35141
7.60000	2.18114	2.35451
7.65000	2.18373	2.35769
7.70000	2.18648	2.36109
7.75000	2.18915	2.36278
7.80000	2.19164	2.36535
7.85000	2.19429	2.36794
7.90000	2.19678	2.36898
7.95000	2.19948	2.37086
8.00000	2.20186	2.37201
8.05000	2.20452	2.37261
8.10000	2.20704	2.37370
8.15000	2.20948	2.37324
8.20000	2.21205	2.37362
8.25000	2.21449	2.37380
8.30000	2.21696	2.37253
8.35000	2.21941	2.37167
8.40000	2.22189	2.37067
8.45000	2.22436	2.36906
8.50000	2.22677	2.36727
8.55000	2.22920	2.36524
8.60000	2.23154	2.36301
8.65000	2.23391	2.36139
8.70000	2.23625	2.35825
8.75000	2.23864	2.35545
8.80000	2.24097	2.35182
8.85000	2.24339	2.34760
8.90000	2.24572	2.34450
8.95000	2.24795	2.33923
9.00000	2.25028	2.33418
9.05000	2.25243	2.32932
9.10000	2.25466	2.32199
9.15000	2.25690	2.31533
9.20000	2.25916	2.30909
9.25000	2.26131	2.30139
9.30000	2.26351	2.29492
9.35000	2.26563	2.28707
9.40000	2.26779	2.27926
9.45000	2.27001	2.27107
9.50000	2.27221	2.26241
9.55000	2.27422	2.25391
9.60000	2.27638	2.24513
9.65000	2.27847	2.23511
9.70000	2.28061	2.22592
9.75000	2.28256	2.21601
9.80000	2.28474	2.20565
9.85000	2.28674	2.19425
9.90000	2.28874	2.18419
9.95000	2.29078	2.17279
10.00000	2.29276	2.16068
10.05000	2.29479	2.14845
10.10000	2.29676	2.13686
10.15000	2.29876	2.12386
10.20000	2.30067	2.11033
10.25000	2.30257	2.09664
10.30000	2.30454	2.08210
10.35000	2.30649	2.06834
10.40000	2.30840	2.05338
10.45000	2.31028	2.03735
10.50000	2.31219	2.02240
10.55000	2.31407	2.00628
10.60000	2.31584	1.99077
10.65000	2.31773	1.97357
10.70000	2.31945	1.95671
10.75000	2.32135	1.93975
10.80000	2.32321	1.92165
10.85000	2.32494	1.90341
10.90000	2.32674	1.88471
10.95000	2.32851	1.86629
11.00000	2.33024	1.84703
11.05000	2.33200	1.82845
11.10000	2.33379	1.80819
11.15000	2.33546	1.78778
11.20000	2.33716	1.76755
11.25000	2.33891	1.74565
11.30000	2.34054	1.72471
11.35000	2.34224	1.70239
11.40000	2.34393	1.68064
11.45000	2.34554	1.65780
11.50000	2.34719	1.63390
11.55000	2.34871	1.61136
11.60000	2.35048	1.58751
11.65000	2.35192	1.56399
11.70000	2.35356	1.53906
11.75000	2.35509	1.51449
11.80000	2.35669	1.48923
11.85000	2.35824	1.46305
11.90000	2.35974	1.43663
11.95000	2.36129	1.40975
12.00000	2.36275	1.38373
12.05000	2.36426	1.35633
12.10000	2.36573	1.32886
12.15000	2.36731	1.30014
12.20000	2.36874	1.27203
12.25000	2.37020	1.24440
12.30000	2.37161	1.21475
12.35000	2.37307	1.18642
12.40000	2.37448	1.15685
12.45000	2.37592	1.12806
12.50000	2.37741	1.09837
12.55000	2.37884	1.06839
12.60000	2.38024	1.03946
12.65000	2.38168	1.00959
12.70000	2.38306	0.97998
12.75000	2.38451	0.94933
12.80000	2.38590	0.91909
12.85000	2.38732	0.88798
12.90000	2.38874	0.85583
12.95000	2.39003	0.82406
13.00000	2.39137	0.79287
13.05000	2.39269	0.76114
13.10000	2.39411	0.72798
13.15000	2.39540	0.69430
13.20000	2.39672	0.66200
13.25000	2.39800	0.62847
13.30000	2.39934	0.59654
13.35000	2.40065	0.56274
13.40000	2.40190	0.52954
13.45000	2.40324	0.49572
13.50000	2.40453	0.46199
13.55000	2.40581	0.42745
13.60000	2.40713	0.39366
13.65000	2.40831	0.35926
13.70000	2.40964	0.32450
13.75000	2.41093	0.29078
13.80000	2.41210	0.25634
13.85000	2.41339	0.22102
13.90000	2.41464	0.18902
13.95000	2.41602	0.15926
14.00000	2.41748	0.13279
14.05000	2.41883	0.10580
14.10000	2.42022	0.08106
14.15000	2.42169	0.05440
14.20000	2.42329	0.03332
14.25000	2.42499	0.02393
14.30000	2.42694	0.02042
14.35000	2.42879	0.01858
14.40000	2.43078	0.01743
14.45000	2.43265	0.01620
14.50000	2.43461	0.01563
14.55000	2.43667	0.01491
14.60000	2.43857	0.01436
14.65000	2.44056	0.01420
14.70000	2.44248	0.01407
14.75000	2.44450	0.01407
14.80000	2.44635	0.01357
14.85000	2.44843	0.01318
14.90000	2.45042	0.01291
14.95000	2.45237	0.01247
15.00000	2.45442	0.01258
15.05000	2.45634	0.01270
15.10000	2.45832	0.01216
15.15000	2.46027	0.01216
15.20000	2.46228	0.01209
15.25000	2.46430	0.01179
15.30000	2.46618	0.01134
15.35000	2.46818	0.01164
15.40000	2.47018	0.01145
15.45000	2.47222	0.01153
15.50000	2.47424	0.01112
15.55000	2.47620	0.01116
15.60000	2.47821	0.01108
15.65000	2.48014	0.01138
15.70000	2.48219	0.01120
15.75000	2.48410	0.01105
15.80000	2.48617	0.01105
15.85000	2.48818	0.01089
15.90000	2.49013	0.01093
15.95000	2.49214	0.01074
16.00000	2.49419	0.01074
16.05000	2.49620	0.01074
16.10000	2.49819	0.01056
16.15000	2.50022	0.01015
16.20000	2.50199	0.01041
16.25000	2.50090	0.01097
16.30000	2.50085	0.01070
16.35000	2.50082	0.01037
16.40000	2.50093	0.01053
16.45000	2.50087	0.01067
16.50000	2.50097	0.01049
16.55000	2.50083	0.01015
16.60000	2.50091	0.01018
16.65000	2.50097	0.01056
16.70000	2.50088	0.01053
16.75000	2.50089	0.01007
16.80000	2.50082	0.01049
16.85000	2.50082	0.01026
16.90000	2.50088	0.01070
16.95000	2.50088	0.01018
17.00000	2.50085	0.01053
17.05000	2.50085	0.01070
17.10000	2.50093	0.01074
17.15000	2.50084	0.01049
17.20000	2.50078	0.01041
17.25000	2.50085	0.01053
17.30000	2.50090	0.01060
17.35000	2.50094	0.01049
17.40000	2.50090	0.01026
17.45000	2.50091	0.01056
17.50000	2.50087	0.01053
17.55000	2.50089	0.01053
17.60000	2.50081	0.01015
17.65000	2.50086	0.01022
17.70000	2.50090	0.01067
17.75000	2.50086	0.01060
17.80000	2.50087	0.01060
17.85000	2.50089	0.01041
17.90000	2.50087	0.01053
17.95000	2.50085	0.01045
18.00000	2.50092	0.01049
18.05000	2.50087	0.01034
18.10000	2.50090	0.01041
18.15000	2.50089	0.01034
18.20000	2.50089	0.01053
18.25000	2.50083	0.00992
18.30000	2.50087	0.01049
18.35000	2.50088	0.01053
18.40000	2.50085	0.01105
18.45000	2.50091	0.01022
18.50000	2.50087	0.01015
18.55000	2.50095	0.01045
18.60000	2.50087	0.01037
18.65000	2.50085	0.01034
18.70000	2.50089	0.01105
18.75000	2.50093	0.01053
18.80000	2.50093	0.01049
18.85000	2.50098	0.01003
18.90000	2.50083	0.01022
18.95000	2.50086	0.01074
19.00000	2.50091	0.01045
19.05000	2.50087	0.01060
19.10000	2.50078	0.01022
19.15000	2.50082	0.01056
19.20000	2.50085	0.01067
19.25000	2.50090	0.01067
19.30000	2.50082	0.01041
19.35000	2.50087	0.01067
19.40000	2.50088	0.01030
19.45000	2.50084	0.01070
19.50000	2.50086	0.01026
19.55000	2.50087	0.01011
19.60000	2.50092	0.01015
19.65000	2.50091	0.01067
19.70000	2.50085	0.01022
19.75000	2.50085	0.01053
19.80000	2.50095	0.01034
19.85000	2.50082	0.01007
19.90000	2.50087	0.01030
19.95000	2.50086	0.01030
20.00000	2.50088	0.01053
20.05000	2.50086	0.01089
20.10000	2.50091	0.01049
20.15000	2.50085	0.01037
20.20000	2.50083	0.01063
20.25000	2.50088	0.01067
20.30000	2.50090	0.01067
20.35000	2.50085	0.01011
20.40000	2.50087	0.01063
20.45000	2.50093	0.01045
20.50000	2.50092	0.01060
20.55000	2.50084	0.01018
20.60000	2.50087	0.01037
20.65000	2.50090	0.01078
20.70000	2.50091	0.01067
20.75000	2.50091	0.01045
20.80000	2.50080	0.01041
20.85000	2.50091	0.01063
20.90000	2.50091	0.01049
20.95000	2.50088	0.01045
21.00000	2.50091	0.01034
21.05000	2.50086	0.01078
21.10000	2.50091	0.01045
21.15000	2.50093	0.01022
21.20000	2.50089	0.01034
21.25000	2.50087	0.01056
21.30000	2.50087	0.01056
21.35000	2.50098	0.01037
21.40000	2.50082	0.01007
21.45000	2.50083	0.01070
21.50000	2.50094	0.01037
21.55000	2.50092	0.01049
21.60000	2.50085	0.01037
21.65000	2.50090	0.01074
21.70000	2.50090	0.01063
21.75000	2.50091	0.01089
21.80000	2.50086	0.01030
21.85000	2.50088	0.01030
21.90000	2.50092	0.01082
21.95000	2.50089	0.01063
22.00000	2.50087	0.01045
22.05000	2.50090	0.01041
22.10000	2.50088	0.01082
22.15000	2.50091	0.01056
22.20000	2.50092	0.01030
22.25000	2.50089	0.01018
22.30000	2.50083	0.01060
22.35000	2.50094	0.01030
22.40000	2.50087	0.01067
22.45000	2.50085	0.01053
22.50000	2.50092	0.01041
22.55000	2.50089	0.01056
22.60000	2.50085	0.01030
22.65000	2.50082	0.01011
22.70000	2.50089	0.01070
22.75000	2.50092	0.01063
22.80000	2.50098	0.01049
22.85000	2.50085	0.01041
22.90000	2.50083	0.01049
22.95000	2.50096	0.01070
23.00000	2.50089	0.01045
23.05000	2.50088	0.01049
23.10000	2.50081	0.01034
23.15000	2.50087	0.01078
23.20000	2.50091	0.01037
23.25000	2.50085	0.01037
23.30000	2.50087	0.01053
23.35000	2.50083	0.01049
23.40000	2.50089	0.01056
23.45000	2.50092	0.01045
23.50000	2.50080	0.01037
23.55000	2.50094	0.01041
23.60000	2.50085	0.01041
23.65000	2.50085	0.01049
23.70000	2.50085	0.01022
23.75000	2.50085	0.01053
23.80000	2.50086	0.01034
23.85000	2.50091	0.01053
23.90000	2.50082	0.01018
23.95000	2.50089	0.01049
24.00000	2.50091	0.01078
24.05000	2.50083	0.01053
24.10000	2.50090	0.01034
24.15000	2.50080	0.01003
24.20000	2.50083	0.01053
24.25000	2.50086	0.01045
24.30000	2.50087	0.01041
24.35000	2.50079	0.01045
24.40000	2.50083	0.01070
24.45000	2.50088	0.01070
24.50000	2.50088	0.01026
24.55000	2.50083	0.01041
24.60000	2.50082	0.01049
24.65000	2.50082	0.01086
24.70000	2.50084	0.01056
24.75000	2.50090	0.01034
24.80000	2.50079	0.01034
24.85000	2.50089	0.01041
24.90000	2.50083	0.01034
24.95000	2.50090	0.01003
25.00000	2.50078	0.01070
25.05000	2.50090	0.01053
25.10000	2.50085	0.01074
25.15000	2.50083	0.01015
25.20000	2.50087	0.01026
25.25000	2.50085	0.01037
25.30000	2.50082	0.01063
25.35000	2.50089	0.01067
25.40000	2.50082	0.01034
25.45000	2.50080	0.01067
25.50000	2.50085	0.01070
25.55000	2.50087	0.01022
25.60000	2.50086	0.01003
25.65000	2.50084	0.01037
25.70000	2.50084	0.01067
25.75000	2.50085	0.01049
25.80000	2.50078	0.01034
25.85000	2.50086	0.01026
25.90000	2.50087	0.01063
25.95000	2.50081	0.01053
26.00000	2.50083	0.01022
26.05000	2.50081	0.01063
26.10000	2.50091	0.01034
26.15000	2.50082	0.01045
26.20000	2.50080	0.01041
26.25000	2.50081	0.01018
26.30000	2.50083	0.01034
26.35000	2.50082	0.01053
26.40000	2.50080	0.01056
26.45000	2.50087	0.01045
26.50000	2.50075	0.01041
26.55000	2.50077	0.01060
26.60000	2.50090	0.01030
26.65000	2.50082	0.01034
26.70000	2.50085	0.01089
26.75000	2.50082	0.01015
26.80000	2.50078	0.01063
26.85000	2.50082	0.01003
26.90000	2.50082	0.01030
26.95000	2.50086	0.01070
27.00000	2.50080	0.01093
27.05000	2.50078	0.01045
27.10000	2.50080	0.01041
27.15000	2.50083	0.01037
27.20000	2.50077	0.01037
27.25000	2.50081	0.01015
27.30000	2.50082	0.01018
27.35000	2.50084	0.01086
27.40000	2.50085	0.01049
27.45000	2.50083	0.01060
27.50000	2.50084	0.01030
27.55000	2.50079	0.01034
27.60000	2.50081	0.01067
27.65000	2.50080	0.01063
27.70000	2.50082	0.01041
27.75000	2.50082	0.01067
27.80000	2.50077	0.01049
27.85000	2.50084	0.01018
27.90000	2.50081	0.01034
27.95000	2.50086	0.01063
28.00000	2.50091	0.01034
28.05000	2.50098	0.01078
28.10000	2.50078	0.01026
28.15000	2.50081	0.01041
28.20000	2.50091	0.01011
28.25000	2.50090	0.01067
28.30000	2.50081	0.01060
28.35000	2.50087	0.01056
28.40000	2.50089	0.01078
28.45000	2.50085	0.01034
28.50000	2.50079	0.01011
28.55000	2.50080	0.01041
28.60000	2.50080	0.01041
28.65000	2.50088	0.01070
28.70000	2.50082	0.01101
28.75000	2.50087	0.01022
28.80000	2.50080	0.01034
28.85000	2.50080	0.01030
28.90000	2.50087	0.01045
28.95000	2.50079	0.01034
29.00000	2.50080	0.01074
29.05000	2.50082	0.01018
29.10000	2.50078	0.01053
29.15000	2.50085	0.01026
29.20000	2.50077	0.01045
29.25000	2.50085	0.01030
29.30000	2.50084	0.01056
29.35000	2.50080	0.01045
29.40000	2.50080	0.01056
29.45000	2.50082	0.01056
29.50000	2.50085	0.01045
29.55000	2.50090	0.01026
29.60000	2.50082	0.01037
29.65000	2.50080	0.01078
29.70000	2.50080	0.01056
29.75000	2.50082	0.01049
29.80000	2.50080	0.01022
29.85000	2.50079	0.01026
29.90000	2.50087	0.01060
29.95000	2.50090	0.01067
30.00000	2.50080	0.01003
